Folder: Knight-Campus/FTIR Data (PCL)

Note: README.md
# Algorithm to Process and Filter the 7000 Protein Panel from SOMALogic

The algorithm described in this post filters the SOMALogic Protein Sample for uniprotIDs that are associated with bone health. Once the proteins have been filters, the algorithm produces venn diagrams to visualize the overlap between various subgroups within the custom panel. 

The Code will be explained below:

```python
import pandas as pd 
import numpy as np 
import matplotlib.pyplot as plt
from matplotlib_venn import venn3, venn2
from venn import venn
```

Above are the libraries imported to load in data, compile the data into a dataset, and analyze the data to produce venn diagrams.

```python
SomaLogic = pd.read_csv("~/Desktop/Knight Campus/ML Code/data.csv")
df = pd.read_csv("~/Desktop/Knight Campus/ML Code/data.csv")
SomaLogic = SomaLogic.fillna(0)
SomaLogic = SomaLogic.replace("X", 1)
df = df.fillna(0)
df = df.replace("X", 1)
```

The block of code above reads in the original dataset as a csv file and replaces all the occurances of NA with 0 and all of the occurances of X with 1. The original dataset indicated all of the SOMALogic proteins that correlated with 'Cardiovascular Disease', 'Inflammation and Immune Response', 'Metabolic Disease', 'Oncology', 'Combine Immune and Metabolic', 'Previous association with age', 'Previous association with Sex', 'Drug Targets', 'Bone Related or of interest', 'NIHM Supplemental Data', 'Aging and Longevity pQTLs', 'Rat Cytokine/Chemokine Luminex', 'Known of Interest', and 'Inflammatory Serum Protein Profiling of Patients'.

File: PCL.CSV
3.991989e+002,0.000000e+000
4.117341e+002,0.000000e+000
4.242693e+002,0.000000e+000
4.368046e+002,0.000000e+000
4.493398e+002,0.000000e+000
4.618751e+002,0.000000e+000
4.744103e+002,0.000000e+000
4.869455e+002,0.000000e+000
4.994808e+002,0.000000e+000
5.120160e+002,0.000000e+000
5.245512e+002,0.000000e+000
5.370865e+002,0.000000e+000
5.496217e+002,8.590006e+001
5.621569e+002,8.535918e+001
5.746922e+002,7.794385e+001
5.872274e+002,7.753244e+001
5.997626e+002,8.444521e+001
6.122979e+002,8.621177e+001
6.248331e+002,8.550982e+001
6.373683e+002,8.645340e+001
6.499036e+002,8.587307e+001
6.624388e+002,8.612372e+001
6.749741e+002,8.567210e+001
6.875093e+002,8.368384e+001
7.000445e+002,7.844484e+001
7.125798e+002,7.342689e+001
7.251150e+002,6.306372e+001
7.376502e+002,7.122418e+001
7.501855e+002,8.541151e+001
7.627207e+002,8.732552e+001
7.752559e+002,8.517463e+001
7.877911e+002,8.744377e+001
8.003264e+002,8.739653e+001
8.128616e+002,8.741117e+001
8.253969e+002,8.690536e+001
8.379321e+002,7.980405e+001
8.504673e+002,8.548795e+001
8.630026e+002,8.499117e+001
8.755378e+002,8.456826e+001
8.880731e+002,8.395695e+001
9.006083e+002,8.321211e+001
9.131435e+002,8.067135e+001
9.256788e+002,7.491021e+001
9.382140e+002,7.122225e+001
9.507492e+002,6.698055e+001
9.632844e+002,5.646830e+001
9.758197e+002,7.478413e+001
9.883549e+002,7.689736e+001
1.000890e+003,7.625164e+001
1.013425e+003,7.360114e+001
1.025961e+003,6.768214e+001
1.038496e+003,5.340808e+001
1.051031e+003,5.760466e+001
1.063566e+003,6.397700e+001
1.076102e+003,7.176113e+001
1.088637e+003,6.233049e+001
1.101172e+003,5.740606e+001
1.113707e+003,6.371555e+001
1.126243e+003,6.799468e+001
1.138778e+003,5.234449e+001
1.151313e+003,3.013091e+001
1.163848e+003,2.342568e+001
1.176383e+003,2.706191e+001
1.188919e+003,3.349150e+001
1.201454e+003,6.558595e+001
1.213989e+003,7.103155e+001
1.226524e+003,6.248800e+001
1.239060e+003,3.766331e+001
1.251595e+003,6.975314e+001
1.264130e+003,7.828693e+001
1.276665e+003,7.667049e+001
1.289201e+003,6.356690e+001
1.301736e+003,7.393595e+001
1.314271e+003,8.372258e+001
1.326806e+003,8.515736e+001
1.339342e+003,8.614234e+001
1.351877e+003,7.474431e+001
1.364412e+003,5.899641e+001
1.376947e+003,7.293802e+001
1.389482e+003,8.214881e+001
1.402018e+003,8.116826e+001
1.414553e+003,7.620922e+001
1.427088e+003,8.685300e+001
1.439623e+003,8.748919e+001
1.452159e+003,8.657567e+001
1.464694e+003,7.946945e+001
1.477229e+003,8.330272e+001
1.489764e+003,9.564060e+001
1.502300e+003,9.696548e+001
1.514835e+003,9.732662e+001
1.527370e+003,9.744460e+001
1.539905e+003,9.739107e+001
1.552441e+003,9.731953e+001
1.564976e+003,9.727329e+001
1.577511e+003,9.700678e+001
1.590046e+003,9.678577e+001
1.602581e+003,9.636856e+001
1.615117e+003,9.569036e+001
1.627652e+003,9.478899e+001
1.640187e+003,9.396730e+001
1.652722e+003,9.278660e+001
1.665258e+003,9.031948e+001
1.677793e+003,8.384566e+001
1.690328e+003,7.374110e+001
1.702863e+003,6.166983e+001
1.715399e+003,2.530726e+001
1.727934e+003,3.263551e+001
1.740469e+003,6.426565e+001
1.753004e+003,9.024847e+001
1.765539e+003,9.396812e+001
1.778075e+003,9.560684e+001
1.790610e+003,9.680464e+001
1.803145e+003,9.769473e+001
1.815680e+003,9.829412e+001
1.828216e+003,9.833907e+001
1.840751e+003,9.845029e+001
1.853286e+003,9.873100e+001
1.865821e+003,9.882591e+001
1.878357e+003,9.880383e+001
1.890892e+003,9.880924e+001
1.903427e+003,9.868584e+001
1.915962e+003,9.868718e+001
1.928498e+003,9.876312e+001
1.941033e+003,9.884285e+001
1.953568e+003,9.901386e+001
1.966103e+003,9.883438e+001
1.978638e+003,9.834975e+001
1.991174e+003,9.872688e+001
2.003709e+003,9.867242e+001
2.016244e+003,9.886771e+001
2.028779e+003,9.859997e+001
2.041315e+003,9.861195e+001
2.053850e+003,9.874209e+001
2.066385e+003,9.870127e+001
2.078920e+003,9.835838e+001
2.091456e+003,9.840439e+001
2.103991e+003,9.831361e+001
2.116526e+003,9.867676e+001
2.129061e+003,9.916250e+001
2.141596e+003,9.897499e+001
2.154132e+003,9.925710e+001
2.166667e+003,9.861398e+001
2.179202e+003,9.901024e+001
2.191738e+003,9.890675e+001
2.204273e+003,9.904411e+001
2.216808e+003,9.879865e+001
2.229343e+003,9.895059e+001
2.241878e+003,9.891602e+001
2.254414e+003,9.895480e+001
2.266949e+003,9.891252e+001
2.279484e+003,9.880335e+001
2.292019e+003,9.865582e+001
2.304555e+003,9.870026e+001
2.317090e+003,9.865743e+001
2.329625e+003,9.890362e+001
2.342160e+003,9.868663e+001
2.354696e+003,9.880098e+001
2.367231e+003,9.900560e+001
2.379766e+003,9.900166e+001
2.392301e+003,9.902614e+001
2.404836e+003,9.904333e+001
2.417372e+003,9.889564e+001
2.429907e+003,9.907506e+001
2.442442e+003,9.905309e+001
2.454977e+003,9.895298e+001
2.467513e+003,9.904723e+001
2.480048e+003,9.901394e+001
2.492583e+003,9.909351e+001
2.505118e+003,9.905155e+001
2.517654e+003,9.906596e+001
2.530189e+003,9.885983e+001
2.542724e+003,9.887732e+001
2.555259e+003,9.900340e+001
2.567794e+003,9.890210e+001
2.580330e+003,9.877577e+001
2.592865e+003,9.888366e+001
2.605400e+003,9.877193e+001
2.617936e+003,9.871724e+001
2.630471e+003,9.874232e+001
2.643006e+003,9.863847e+001
2.655541e+003,9.858397e+001
2.668076e+003,9.868288e+001
2.680612e+003,9.858701e+001
2.693147e+003,9.862483e+001
2.705682e+003,9.857246e+001
2.718217e+003,9.852116e+001
2.730753e+003,9.849129e+001
2.743288e+003,9.842845e+001
2.755823e+003,9.841171e+001
2.768358e+003,9.819261e+001
2.780894e+003,9.815794e+001
2.793429e+003,9.794588e+001
2.805964e+003,9.760145e+001
2.818499e+003,9.683542e+001
2.831034e+003,9.585249e+001
2.843570e+003,9.301778e+001
2.856105e+003,8.463339e+001
2.868640e+003,8.061356e+001
2.881175e+003,8.826429e+001
2.893711e+003,8.412152e+001
2.906246e+003,8.318431e+001
2.918781e+003,7.862260e+001
2.931316e+003,7.357258e+001
2.943852e+003,7.027672e+001
2.956387e+003,7.616025e+001
2.968922e+003,8.648179e+001
2.981457e+003,9.378674e+001
2.993992e+003,9.667403e+001
3.006528e+003,9.779238e+001
3.019063e+003,9.827628e+001
3.031598e+003,9.846461e+001
3.044134e+003,9.861068e+001
3.056669e+003,9.872749e+001
3.069204e+003,9.877046e+001
3.081739e+003,9.882910e+001
3.094274e+003,9.880769e+001
3.106810e+003,9.875310e+001
3.119345e+003,9.896648e+001
3.131880e+003,9.901307e+001
3.144415e+003,9.895886e+001
3.156950e+003,9.905176e+001
3.169486e+003,9.892001e+001
3.182021e+003,9.900751e+001
3.194556e+003,9.899670e+001
3.207092e+003,9.903970e+001
3.219627e+003,9.909558e+001
3.232162e+003,9.904678e+001
3.244697e+003,9.905430e+001
3.257232e+003,9.897587e+001
3.269768e+003,9.898544e+001
3.282303e+003,9.904344e+001
3.294838e+003,9.903683e+001
3.307373e+003,9.899443e+001
3.319909e+003,9.900047e+001
3.332444e+003,9.902078e+001
3.344979e+003,9.902232e+001
3.357514e+003,9.904812e+001
3.370050e+003,9.897707e+001
3.382585e+003,9.912425e+001
3.395120e+003,9.900198e+001
3.407655e+003,9.902084e+001
3.420190e+003,9.879620e+001
3.432726e+003,9.829523e+001
3.445261e+003,9.832691e+001
3.457796e+003,9.853384e+001
3.470332e+003,9.875740e+001
3.482867e+003,9.909329e+001
3.495402e+003,9.894442e+001
3.507937e+003,9.906403e+001
3.520472e+003,9.896066e+001
3.533008e+003,9.899341e+001
3.545543e+003,9.888700e+001
3.558078e+003,9.908749e+001
3.570613e+003,9.911988e+001
3.583148e+003,9.917438e+001
3.595684e+003,9.927283e+001
3.608219e+003,9.916283e+001
3.620754e+003,9.926291e+001
3.633290e+003,9.917278e+001
3.645825e+003,9.931499e+001
3.658360e+003,9.933526e+001
3.670895e+003,9.928587e+001
3.683430e+003,9.941269e+001
3.695966e+003,9.941872e+001
3.708501e+003,9.949519e+001
3.721036e+003,9.934721e+001
3.733571e+003,9.961699e+001
3.746107e+003,9.942329e+001
3.758642e+003,9.933882e+001
3.771177e+003,9.947707e+001
3.783712e+003,9.949015e+001
3.796248e+003,9.951500e+001
3.808783e+003,9.961517e+001
3.821318e+003,9.949620e+001
3.833853e+003,9.943407e+001
3.846388e+003,9.939822e+001
3.858924e+003,9.942896e+001
3.871459e+003,9.941500e+001
3.883994e+003,9.942162e+001
3.896529e+003,9.939114e+001
3.909065e+003,9.935401e+001
3.921600e+003,9.946286e+001
3.934135e+003,9.930313e+001
3.946670e+003,9.948042e+001
3.959206e+003,9.938661e+001
3.971741e+003,9.941156e+001
3.984276e+003,9.944878e+001
3.996811e+003,9.926461e+001
4.000668e+003,0.000000e+000

File: PCL_1.CSV
3.991989e+002,0.000000e+000
4.117341e+002,0.000000e+000
4.242693e+002,0.000000e+000
4.368046e+002,0.000000e+000
4.493398e+002,0.000000e+000
4.618751e+002,0.000000e+000
4.744103e+002,0.000000e+000
4.869455e+002,0.000000e+000
4.994808e+002,0.000000e+000
5.120160e+002,0.000000e+000
5.245512e+002,0.000000e+000
5.370865e+002,0.000000e+000
5.496217e+002,8.334021e+001
5.621569e+002,8.650667e+001
5.746922e+002,7.901070e+001
5.872274e+002,7.911632e+001
5.997626e+002,8.451443e+001
6.122979e+002,8.496124e+001
6.248331e+002,8.574821e+001
6.373683e+002,8.667351e+001
6.499036e+002,8.579976e+001
6.624388e+002,8.601923e+001
6.749741e+002,8.576480e+001
6.875093e+002,8.379921e+001
7.000445e+002,7.884624e+001
7.125798e+002,7.438772e+001
7.251150e+002,6.467177e+001
7.376502e+002,7.180122e+001
7.501855e+002,8.560323e+001
7.627207e+002,8.728361e+001
7.752559e+002,8.525732e+001
7.877911e+002,8.742867e+001
8.003264e+002,8.738497e+001
8.128616e+002,8.741454e+001
8.253969e+002,8.684947e+001
8.379321e+002,8.008408e+001
8.504673e+002,8.543989e+001
8.630026e+002,8.507465e+001
8.755378e+002,8.460534e+001
8.880731e+002,8.400527e+001
9.006083e+002,8.326879e+001
9.131435e+002,8.085706e+001
9.256788e+002,7.543217e+001
9.382140e+002,7.200199e+001
9.507492e+002,6.778474e+001
9.632844e+002,5.848724e+001
9.758197e+002,7.537595e+001
9.883549e+002,7.739455e+001
1.000890e+003,7.680854e+001
1.013425e+003,7.423463e+001
1.025961e+003,6.855104e+001
1.038496e+003,5.514635e+001
1.051031e+003,5.902802e+001
1.063566e+003,6.539640e+001
1.076102e+003,7.267909e+001
1.088637e+003,6.348563e+001
1.101172e+003,5.866626e+001
1.113707e+003,6.480362e+001
1.126243e+003,6.870085e+001
1.138778e+003,5.346801e+001
1.151313e+003,3.212950e+001
1.163848e+003,2.553080e+001
1.176383e+003,2.979119e+001
1.188919e+003,3.754147e+001
1.201454e+003,6.734763e+001
1.213989e+003,7.212935e+001
1.226524e+003,6.398152e+001
1.239060e+003,4.059470e+001
1.251595e+003,7.174294e+001
1.264130e+003,7.917857e+001
1.276665e+003,7.751521e+001
1.289201e+003,6.523882e+001
1.301736e+003,7.508000e+001
1.314271e+003,8.406492e+001
1.326806e+003,8.538360e+001
1.339342e+003,8.635228e+001
1.351877e+003,7.553680e+001
1.364412e+003,6.107551e+001
1.376947e+003,7.476354e+001
1.389482e+003,8.271326e+001
1.402018e+003,8.215443e+001
1.414553e+003,7.706606e+001
1.427088e+003,8.719041e+001
1.439623e+003,8.777958e+001
1.452159e+003,8.668935e+001
1.464694e+003,8.013010e+001
1.477229e+003,8.374934e+001
1.489764e+003,9.536488e+001
1.502300e+003,9.632409e+001
1.514835e+003,9.670653e+001
1.527370e+003,9.686015e+001
1.539905e+003,9.714973e+001
1.552441e+003,9.683926e+001
1.564976e+003,9.678929e+001
1.577511e+003,9.656820e+001
1.590046e+003,9.628038e+001
1.602581e+003,9.588240e+001
1.615117e+003,9.511230e+001
1.627652e+003,9.424216e+001
1.640187e+003,9.339083e+001
1.652722e+003,9.239086e+001
1.665258e+003,8.991740e+001
1.677793e+003,8.390014e+001
1.690328e+003,7.460404e+001
1.702863e+003,6.362005e+001
1.715399e+003,3.004775e+001
1.727934e+003,3.461454e+001
1.740469e+003,6.538631e+001
1.753004e+003,9.073082e+001
1.765539e+003,9.427075e+001
1.778075e+003,9.575106e+001
1.790610e+003,9.681062e+001
1.803145e+003,9.755698e+001
1.815680e+003,9.805785e+001
1.828216e+003,9.824692e+001
1.840751e+003,9.822282e+001
1.853286e+003,9.845206e+001
1.865821e+003,9.857751e+001
1.878357e+003,9.863554e+001
1.890892e+003,9.852209e+001
1.903427e+003,9.839610e+001
1.915962e+003,9.838290e+001
1.928498e+003,9.834055e+001
1.941033e+003,9.847280e+001
1.953568e+003,9.843793e+001
1.966103e+003,9.855892e+001
1.978638e+003,9.796987e+001
1.991174e+003,9.833681e+001
2.003709e+003,9.857617e+001
2.016244e+003,9.846677e+001
2.028779e+003,9.821670e+001
2.041315e+003,9.808488e+001
2.053850e+003,9.828503e+001
2.066385e+003,9.832414e+001
2.078920e+003,9.794918e+001
2.091456e+003,9.809754e+001
2.103991e+003,9.801896e+001
2.116526e+003,9.834007e+001
2.129061e+003,9.865310e+001
2.141596e+003,9.849525e+001
2.154132e+003,9.888588e+001
2.166667e+003,9.805796e+001
2.179202e+003,9.840299e+001
2.191738e+003,9.820580e+001
2.204273e+003,9.856108e+001
2.216808e+003,9.827348e+001
2.229343e+003,9.850858e+001
2.241878e+003,9.847691e+001
2.254414e+003,9.849570e+001
2.266949e+003,9.842548e+001
2.279484e+003,9.838280e+001
2.292019e+003,9.825735e+001
2.304555e+003,9.819894e+001
2.317090e+003,9.801701e+001
2.329625e+003,9.816277e+001
2.342160e+003,9.801777e+001
2.354696e+003,9.820081e+001
2.367231e+003,9.828266e+001
2.379766e+003,9.850697e+001
2.392301e+003,9.861105e+001
2.404836e+003,9.864778e+001
2.417372e+003,9.851098e+001
2.429907e+003,9.866231e+001
2.442442e+003,9.861558e+001
2.454977e+003,9.859091e+001
2.467513e+003,9.857961e+001
2.480048e+003,9.851911e+001
2.492583e+003,9.860931e+001
2.505118e+003,9.871994e+001
2.517654e+003,9.865035e+001
2.530189e+003,9.845558e+001
2.542724e+003,9.850827e+001
2.555259e+003,9.851519e+001
2.567794e+003,9.855549e+001
2.580330e+003,9.838722e+001
2.592865e+003,9.837634e+001
2.605400e+003,9.843953e+001
2.617936e+003,9.836281e+001
2.630471e+003,9.831258e+001
2.643006e+003,9.814092e+001
2.655541e+003,9.821634e+001
2.668076e+003,9.828455e+001
2.680612e+003,9.824036e+001
2.693147e+003,9.822206e+001
2.705682e+003,9.812392e+001
2.718217e+003,9.811858e+001
2.730753e+003,9.808475e+001
2.743288e+003,9.798264e+001
2.755823e+003,9.798007e+001
2.768358e+003,9.783188e+001
2.780894e+003,9.779302e+001
2.793429e+003,9.757815e+001
2.805964e+003,9.723022e+001
2.818499e+003,9.648861e+001
2.831034e+003,9.561633e+001
2.843570e+003,9.305090e+001
2.856105e+003,8.540865e+001
2.868640e+003,8.158990e+001
2.881175e+003,8.864928e+001
2.893711e+003,8.486790e+001
2.906246e+003,8.413478e+001
2.918781e+003,8.011588e+001
2.931316e+003,7.529138e+001
2.943852e+003,7.247543e+001
2.956387e+003,7.762619e+001
2.968922e+003,8.738495e+001
2.981457e+003,9.390496e+001
2.993992e+003,9.660836e+001
3.006528e+003,9.756920e+001
3.019063e+003,9.798867e+001
3.031598e+003,9.816277e+001
3.044134e+003,9.823441e+001
3.056669e+003,9.841607e+001
3.069204e+003,9.840295e+001
3.081739e+003,9.846764e+001
3.094274e+003,9.849143e+001
3.106810e+003,9.842266e+001
3.119345e+003,9.854810e+001
3.131880e+003,9.860912e+001
3.144415e+003,9.850864e+001
3.156950e+003,9.854533e+001
3.169486e+003,9.851098e+001
3.182021e+003,9.868200e+001
3.194556e+003,9.860498e+001
3.207092e+003,9.861938e+001
3.219627e+003,9.859351e+001
3.232162e+003,9.865310e+001
3.244697e+003,9.862998e+001
3.257232e+003,9.861040e+001
3.269768e+003,9.860852e+001
3.282303e+003,9.856219e+001
3.294838e+003,9.862675e+001
3.307373e+003,9.869064e+001
3.319909e+003,9.856117e+001
3.332444e+003,9.854938e+001
3.344979e+003,9.861020e+001
3.357514e+003,9.863142e+001
3.370050e+003,9.861482e+001
3.382585e+003,9.861675e+001
3.395120e+003,9.863921e+001
3.407655e+003,9.857494e+001
3.420190e+003,9.844943e+001
3.432726e+003,9.802318e+001
3.445261e+003,9.798107e+001
3.457796e+003,9.829072e+001
3.470332e+003,9.849936e+001
3.482867e+003,9.872555e+001
3.495402e+003,9.855641e+001
3.507937e+003,9.880505e+001
3.520472e+003,9.875484e+001
3.533008e+003,9.882544e+001
3.545543e+003,9.857964e+001
3.558078e+003,9.875711e+001
3.570613e+003,9.879179e+001
3.583148e+003,9.878210e+001
3.595684e+003,9.894546e+001
3.608219e+003,9.886279e+001
3.620754e+003,9.894395e+001
3.633290e+003,9.906385e+001
3.645825e+003,9.921092e+001
3.658360e+003,9.903909e+001
3.670895e+003,9.918743e+001
3.683430e+003,9.918285e+001
3.695966e+003,9.933739e+001
3.708501e+003,9.931996e+001
3.721036e+003,9.917021e+001
3.733571e+003,9.920623e+001
3.746107e+003,9.930343e+001
3.758642e+003,9.933261e+001
3.771177e+003,9.920710e+001
3.783712e+003,9.925645e+001
3.796248e+003,9.926494e+001
3.808783e+003,9.928035e+001
3.821318e+003,9.923862e+001
3.833853e+003,9.921859e+001
3.846388e+003,9.916640e+001
3.858924e+003,9.912184e+001
3.871459e+003,9.922917e+001
3.883994e+003,9.914368e+001
3.896529e+003,9.908089e+001
3.909065e+003,9.920502e+001
3.921600e+003,9.933954e+001
3.934135e+003,9.914523e+001
3.946670e+003,9.923608e+001
3.959206e+003,9.918642e+001
3.971741e+003,9.924037e+001
3.984276e+003,9.918026e+001
3.996811e+003,9.925327e+001
4.000668e+003,0.000000e+000