Folder: Knight-Campus/FTIR Data (PCL)/All Data (part 2)

File: PCL_NaOH_3_1.CSV
3.991989e+002,0.000000e+000
4.117341e+002,0.000000e+000
4.242693e+002,0.000000e+000
4.368046e+002,0.000000e+000
4.493398e+002,0.000000e+000
4.618751e+002,0.000000e+000
4.744103e+002,0.000000e+000
4.869455e+002,0.000000e+000
4.994808e+002,0.000000e+000
5.120160e+002,0.000000e+000
5.245512e+002,0.000000e+000
5.370865e+002,0.000000e+000
5.496217e+002,8.348197e+001
5.621569e+002,8.477345e+001
5.746922e+002,7.851637e+001
5.872274e+002,7.905716e+001
5.997626e+002,8.396941e+001
6.122979e+002,8.479494e+001
6.248331e+002,8.589610e+001
6.373683e+002,8.653318e+001
6.499036e+002,8.586083e+001
6.624388e+002,8.621501e+001
6.749741e+002,8.563892e+001
6.875093e+002,8.403776e+001
7.000445e+002,7.872978e+001
7.125798e+002,7.435426e+001
7.251150e+002,6.447802e+001
7.376502e+002,7.219609e+001
7.501855e+002,8.562804e+001
7.627207e+002,8.735861e+001
7.752559e+002,8.548767e+001
7.877911e+002,8.759826e+001
8.003264e+002,8.757838e+001
8.128616e+002,8.755595e+001
8.253969e+002,8.706596e+001
8.379321e+002,8.042657e+001
8.504673e+002,8.573942e+001
8.630026e+002,8.528751e+001
8.755378e+002,8.484640e+001
8.880731e+002,8.420462e+001
9.006083e+002,8.350663e+001
9.131435e+002,8.113721e+001
9.256788e+002,7.560194e+001
9.382140e+002,7.233743e+001
9.507492e+002,6.802365e+001
9.632844e+002,5.844870e+001
9.758197e+002,7.554015e+001
9.883549e+002,7.749151e+001
1.000890e+003,7.688490e+001
1.013425e+003,7.430614e+001
1.025961e+003,6.865009e+001
1.038496e+003,5.504825e+001
1.051031e+003,5.928435e+001
1.063566e+003,6.527435e+001
1.076102e+003,7.253788e+001
1.088637e+003,6.346861e+001
1.101172e+003,5.881765e+001
1.113707e+003,6.501764e+001
1.126243e+003,6.901778e+001
1.138778e+003,5.400079e+001
1.151313e+003,3.270288e+001
1.163848e+003,2.609278e+001
1.176383e+003,2.966394e+001
1.188919e+003,3.638962e+001
1.201454e+003,6.694052e+001
1.213989e+003,7.194215e+001
1.226524e+003,6.381410e+001
1.239060e+003,4.013339e+001
1.251595e+003,7.114474e+001
1.264130e+003,7.888136e+001
1.276665e+003,7.730379e+001
1.289201e+003,6.503124e+001
1.301736e+003,7.478446e+001
1.314271e+003,8.396720e+001
1.326806e+003,8.529176e+001
1.339342e+003,8.627424e+001
1.351877e+003,7.547017e+001
1.364412e+003,6.066973e+001
1.376947e+003,7.414461e+001
1.389482e+003,8.246947e+001
1.402018e+003,8.177429e+001
1.414553e+003,7.681561e+001
1.427088e+003,8.704771e+001
1.439623e+003,8.757384e+001
1.452159e+003,8.659753e+001
1.464694e+003,7.999345e+001
1.477229e+003,8.371579e+001
1.489764e+003,9.551887e+001
1.502300e+003,9.643288e+001
1.514835e+003,9.672894e+001
1.527370e+003,9.683460e+001
1.539905e+003,9.706271e+001
1.552441e+003,9.657262e+001
1.564976e+003,9.652028e+001
1.577511e+003,9.644632e+001
1.590046e+003,9.613096e+001
1.602581e+003,9.568007e+001
1.615117e+003,9.504794e+001
1.627652e+003,9.409969e+001
1.640187e+003,9.326266e+001
1.652722e+003,9.231260e+001
1.665258e+003,8.997453e+001
1.677793e+003,8.393844e+001
1.690328e+003,7.450069e+001
1.702863e+003,6.306427e+001
1.715399e+003,2.881709e+001
1.727934e+003,3.478625e+001
1.740469e+003,6.551997e+001
1.753004e+003,9.065492e+001
1.765539e+003,9.422742e+001
1.778075e+003,9.577979e+001
1.790610e+003,9.688916e+001
1.803145e+003,9.772707e+001
1.815680e+003,9.827512e+001
1.828216e+003,9.843181e+001
1.840751e+003,9.844133e+001
1.853286e+003,9.867656e+001
1.865821e+003,9.874024e+001
1.878357e+003,9.877432e+001
1.890892e+003,9.869370e+001
1.903427e+003,9.869630e+001
1.915962e+003,9.862482e+001
1.928498e+003,9.875212e+001
1.941033e+003,9.888585e+001
1.953568e+003,9.877436e+001
1.966103e+003,9.876746e+001
1.978638e+003,9.851926e+001
1.991174e+003,9.876697e+001
2.003709e+003,9.875038e+001
2.016244e+003,9.889835e+001
2.028779e+003,9.870229e+001
2.041315e+003,9.846008e+001
2.053850e+003,9.863841e+001
2.066385e+003,9.865585e+001
2.078920e+003,9.843775e+001
2.091456e+003,9.849776e+001
2.103991e+003,9.839749e+001
2.116526e+003,9.860439e+001
2.129061e+003,9.910475e+001
2.141596e+003,9.889701e+001
2.154132e+003,9.903946e+001
2.166667e+003,9.842378e+001
2.179202e+003,9.904977e+001
2.191738e+003,9.884568e+001
2.204273e+003,9.883844e+001
2.216808e+003,9.872701e+001
2.229343e+003,9.880927e+001
2.241878e+003,9.894317e+001
2.254414e+003,9.878617e+001
2.266949e+003,9.899056e+001
2.279484e+003,9.877314e+001
2.292019e+003,9.860855e+001
2.304555e+003,9.854635e+001
2.317090e+003,9.839671e+001
2.329625e+003,9.855857e+001
2.342160e+003,9.819115e+001
2.354696e+003,9.849854e+001
2.367231e+003,9.880669e+001
2.379766e+003,9.884876e+001
2.392301e+003,9.893799e+001
2.404836e+003,9.892973e+001
2.417372e+003,9.884709e+001
2.429907e+003,9.896465e+001
2.442442e+003,9.896698e+001
2.454977e+003,9.893299e+001
2.467513e+003,9.884148e+001
2.480048e+003,9.885498e+001
2.492583e+003,9.897841e+001
2.505118e+003,9.896656e+001
2.517654e+003,9.890568e+001
2.530189e+003,9.877620e+001
2.542724e+003,9.876162e+001
2.555259e+003,9.885966e+001
2.567794e+003,9.889233e+001
2.580330e+003,9.871338e+001
2.592865e+003,9.875524e+001
2.605400e+003,9.866967e+001
2.617936e+003,9.859359e+001
2.630471e+003,9.854831e+001
2.643006e+003,9.844824e+001
2.655541e+003,9.845151e+001
2.668076e+003,9.851513e+001
2.680612e+003,9.842154e+001
2.693147e+003,9.848394e+001
2.705682e+003,9.843485e+001
2.718217e+003,9.837321e+001
2.730753e+003,9.831023e+001
2.743288e+003,9.829949e+001
2.755823e+003,9.824016e+001
2.768358e+003,9.800185e+001
2.780894e+003,9.794684e+001
2.793429e+003,9.780585e+001
2.805964e+003,9.747562e+001
2.818499e+003,9.669435e+001
2.831034e+003,9.574109e+001
2.843570e+003,9.300183e+001
2.856105e+003,8.490771e+001
2.868640e+003,8.111108e+001
2.881175e+003,8.851295e+001
2.893711e+003,8.442294e+001
2.906246e+003,8.355024e+001
2.918781e+003,7.917356e+001
2.931316e+003,7.437446e+001
2.943852e+003,7.143179e+001
2.956387e+003,7.692036e+001
2.968922e+003,8.689316e+001
2.981457e+003,9.382522e+001
2.993992e+003,9.653032e+001
3.006528e+003,9.757775e+001
3.019063e+003,9.798330e+001
3.031598e+003,9.816941e+001
3.044134e+003,9.826644e+001
3.056669e+003,9.838681e+001
3.069204e+003,9.840797e+001
3.081739e+003,9.851801e+001
3.094274e+003,9.853356e+001
3.106810e+003,9.848252e+001
3.119345e+003,9.857308e+001
3.131880e+003,9.855864e+001
3.144415e+003,9.856127e+001
3.156950e+003,9.855866e+001
3.169486e+003,9.857393e+001
3.182021e+003,9.860397e+001
3.194556e+003,9.853365e+001
3.207092e+003,9.863921e+001
3.219627e+003,9.867192e+001
3.232162e+003,9.858554e+001
3.244697e+003,9.849722e+001
3.257232e+003,9.843583e+001
3.269768e+003,9.845309e+001
3.282303e+003,9.848331e+001
3.294838e+003,9.835692e+001
3.307373e+003,9.844934e+001
3.319909e+003,9.846227e+001
3.332444e+003,9.846471e+001
3.344979e+003,9.848565e+001
3.357514e+003,9.851880e+001
3.370050e+003,9.855286e+001
3.382585e+003,9.850743e+001
3.395120e+003,9.848118e+001
3.407655e+003,9.845593e+001
3.420190e+003,9.826260e+001
3.432726e+003,9.787666e+001
3.445261e+003,9.785295e+001
3.457796e+003,9.808038e+001
3.470332e+003,9.842813e+001
3.482867e+003,9.861034e+001
3.495402e+003,9.847797e+001
3.507937e+003,9.859968e+001
3.520472e+003,9.869279e+001
3.533008e+003,9.875726e+001
3.545543e+003,9.866340e+001
3.558078e+003,9.883052e+001
3.570613e+003,9.877958e+001
3.583148e+003,9.895013e+001
3.595684e+003,9.903938e+001
3.608219e+003,9.890874e+001
3.620754e+003,9.907668e+001
3.633290e+003,9.904010e+001
3.645825e+003,9.952323e+001
3.658360e+003,9.918790e+001
3.670895e+003,9.939728e+001
3.683430e+003,9.947560e+001
3.695966e+003,9.938956e+001
3.708501e+003,9.943004e+001
3.721036e+003,9.945167e+001
3.733571e+003,9.959585e+001
3.746107e+003,9.947397e+001
3.758642e+003,9.944418e+001
3.771177e+003,9.946431e+001
3.783712e+003,9.942857e+001
3.796248e+003,9.954402e+001
3.808783e+003,9.961408e+001
3.821318e+003,9.972923e+001
3.833853e+003,9.951927e+001
3.846388e+003,9.930309e+001
3.858924e+003,9.938779e+001
3.871459e+003,9.943609e+001
3.883994e+003,9.942357e+001
3.896529e+003,9.930763e+001
3.909065e+003,9.929740e+001
3.921600e+003,9.941325e+001
3.934135e+003,9.931113e+001
3.946670e+003,9.936353e+001
3.959206e+003,9.927837e+001
3.971741e+003,9.947893e+001
3.984276e+003,9.945168e+001
3.996811e+003,9.919984e+001
4.000668e+003,0.000000e+000

File: PCL_NaOH_3_2.CSV
3.991989e+002,0.000000e+000
4.117341e+002,0.000000e+000
4.242693e+002,0.000000e+000
4.368046e+002,0.000000e+000
4.493398e+002,0.000000e+000
4.618751e+002,0.000000e+000
4.744103e+002,0.000000e+000
4.869455e+002,0.000000e+000
4.994808e+002,0.000000e+000
5.120160e+002,0.000000e+000
5.245512e+002,0.000000e+000
5.370865e+002,0.000000e+000
5.496217e+002,8.355971e+001
5.621569e+002,8.502321e+001
5.746922e+002,7.957481e+001
5.872274e+002,7.850229e+001
5.997626e+002,8.390507e+001
6.122979e+002,8.467919e+001
6.248331e+002,8.557870e+001
6.373683e+002,8.600450e+001
6.499036e+002,8.561906e+001
6.624388e+002,8.587742e+001
6.749741e+002,8.541368e+001
6.875093e+002,8.356957e+001
7.000445e+002,7.859637e+001
7.125798e+002,7.395545e+001
7.251150e+002,6.395366e+001
7.376502e+002,7.200961e+001
7.501855e+002,8.556373e+001
7.627207e+002,8.733802e+001
7.752559e+002,8.533286e+001
7.877911e+002,8.751726e+001
8.003264e+002,8.748981e+001
8.128616e+002,8.745944e+001
8.253969e+002,8.707302e+001
8.379321e+002,8.035666e+001
8.504673e+002,8.561792e+001
8.630026e+002,8.518868e+001
8.755378e+002,8.478225e+001
8.880731e+002,8.413379e+001
9.006083e+002,8.332716e+001
9.131435e+002,8.103354e+001
9.256788e+002,7.541298e+001
9.382140e+002,7.196213e+001
9.507492e+002,6.774437e+001
9.632844e+002,5.770300e+001
9.758197e+002,7.521369e+001
9.883549e+002,7.714942e+001
1.000890e+003,7.655568e+001
1.013425e+003,7.403276e+001
1.025961e+003,6.829238e+001
1.038496e+003,5.433554e+001
1.051031e+003,5.877644e+001
1.063566e+003,6.461058e+001
1.076102e+003,7.208771e+001
1.088637e+003,6.283216e+001
1.101172e+003,5.816558e+001
1.113707e+003,6.463453e+001
1.126243e+003,6.875355e+001
1.138778e+003,5.343672e+001
1.151313e+003,3.164131e+001
1.163848e+003,2.524328e+001
1.176383e+003,2.889081e+001
1.188919e+003,3.516366e+001
1.201454e+003,6.628576e+001
1.213989e+003,7.144518e+001
1.226524e+003,6.325314e+001
1.239060e+003,3.948631e+001
1.251595e+003,7.052195e+001
1.264130e+003,7.855489e+001
1.276665e+003,7.701935e+001
1.289201e+003,6.481083e+001
1.301736e+003,7.450430e+001
1.314271e+003,8.379222e+001
1.326806e+003,8.514899e+001
1.339342e+003,8.615572e+001
1.351877e+003,7.525025e+001
1.364412e+003,6.043124e+001
1.376947e+003,7.381204e+001
1.389482e+003,8.228862e+001
1.402018e+003,8.160311e+001
1.414553e+003,7.667625e+001
1.427088e+003,8.689228e+001
1.439623e+003,8.748051e+001
1.452159e+003,8.656029e+001
1.464694e+003,7.981631e+001
1.477229e+003,8.368182e+001
1.489764e+003,9.553302e+001
1.502300e+003,9.647066e+001
1.514835e+003,9.679260e+001
1.527370e+003,9.691309e+001
1.539905e+003,9.710117e+001
1.552441e+003,9.658116e+001
1.564976e+003,9.643916e+001
1.577511e+003,9.634973e+001
1.590046e+003,9.610965e+001
1.602581e+003,9.569982e+001
1.615117e+003,9.508089e+001
1.627652e+003,9.426115e+001
1.640187e+003,9.342148e+001
1.652722e+003,9.243661e+001
1.665258e+003,8.999378e+001
1.677793e+003,8.387465e+001
1.690328e+003,7.439458e+001
1.702863e+003,6.284788e+001
1.715399e+003,2.762832e+001
1.727934e+003,3.403509e+001
1.740469e+003,6.502507e+001
1.753004e+003,9.055272e+001
1.765539e+003,9.415717e+001
1.778075e+003,9.568821e+001
1.790610e+003,9.691215e+001
1.803145e+003,9.762308e+001
1.815680e+003,9.820403e+001
1.828216e+003,9.836542e+001
1.840751e+003,9.829811e+001
1.853286e+003,9.862663e+001
1.865821e+003,9.874972e+001
1.878357e+003,9.864066e+001
1.890892e+003,9.865762e+001
1.903427e+003,9.857526e+001
1.915962e+003,9.850985e+001
1.928498e+003,9.863734e+001
1.941033e+003,9.873827e+001
1.953568e+003,9.862502e+001
1.966103e+003,9.872661e+001
1.978638e+003,9.809852e+001
1.991174e+003,9.875610e+001
2.003709e+003,9.847089e+001
2.016244e+003,9.876868e+001
2.028779e+003,9.865176e+001
2.041315e+003,9.849518e+001
2.053850e+003,9.874735e+001
2.066385e+003,9.843037e+001
2.078920e+003,9.823457e+001
2.091456e+003,9.830602e+001
2.103991e+003,9.829631e+001
2.116526e+003,9.846215e+001
2.129061e+003,9.897319e+001
2.141596e+003,9.884010e+001
2.154132e+003,9.878345e+001
2.166667e+003,9.848101e+001
2.179202e+003,9.882587e+001
2.191738e+003,9.865993e+001
2.204273e+003,9.869332e+001
2.216808e+003,9.858511e+001
2.229343e+003,9.866389e+001
2.241878e+003,9.874439e+001
2.254414e+003,9.874917e+001
2.266949e+003,9.874810e+001
2.279484e+003,9.845743e+001
2.292019e+003,9.832079e+001
2.304555e+003,9.819325e+001
2.317090e+003,9.775709e+001
2.329625e+003,9.751292e+001
2.342160e+003,9.726597e+001
2.354696e+003,9.721684e+001
2.367231e+003,9.733501e+001
2.379766e+003,9.840880e+001
2.392301e+003,9.874585e+001
2.404836e+003,9.874298e+001
2.417372e+003,9.872559e+001
2.429907e+003,9.882153e+001
2.442442e+003,9.872988e+001
2.454977e+003,9.868906e+001
2.467513e+003,9.871034e+001
2.480048e+003,9.869224e+001
2.492583e+003,9.874364e+001
2.505118e+003,9.882613e+001
2.517654e+003,9.870261e+001
2.530189e+003,9.851085e+001
2.542724e+003,9.860780e+001
2.555259e+003,9.866666e+001
2.567794e+003,9.865033e+001
2.580330e+003,9.852612e+001
2.592865e+003,9.858326e+001
2.605400e+003,9.853106e+001
2.617936e+003,9.842587e+001
2.630471e+003,9.842798e+001
2.643006e+003,9.822781e+001
2.655541e+003,9.823792e+001
2.668076e+003,9.834370e+001
2.680612e+003,9.825502e+001
2.693147e+003,9.825323e+001
2.705682e+003,9.822691e+001
2.718217e+003,9.816354e+001
2.730753e+003,9.818599e+001
2.743288e+003,9.807285e+001
2.755823e+003,9.802583e+001
2.768358e+003,9.781824e+001
2.780894e+003,9.776847e+001
2.793429e+003,9.757714e+001
2.805964e+003,9.728799e+001
2.818499e+003,9.652726e+001
2.831034e+003,9.558105e+001
2.843570e+003,9.291965e+001
2.856105e+003,8.492693e+001
2.868640e+003,8.116277e+001
2.881175e+003,8.845562e+001
2.893711e+003,8.448027e+001
2.906246e+003,8.358263e+001
2.918781e+003,7.923605e+001
2.931316e+003,7.448165e+001
2.943852e+003,7.143985e+001
2.956387e+003,7.696869e+001
2.968922e+003,8.688900e+001
2.981457e+003,9.368330e+001
2.993992e+003,9.639341e+001
3.006528e+003,9.749332e+001
3.019063e+003,9.784985e+001
3.031598e+003,9.804942e+001
3.044134e+003,9.810743e+001
3.056669e+003,9.821856e+001
3.069204e+003,9.827216e+001
3.081739e+003,9.829613e+001
3.094274e+003,9.831220e+001
3.106810e+003,9.828058e+001
3.119345e+003,9.837252e+001
3.131880e+003,9.838424e+001
3.144415e+003,9.843116e+001
3.156950e+003,9.839909e+001
3.169486e+003,9.832182e+001
3.182021e+003,9.840284e+001
3.194556e+003,9.836536e+001
3.207092e+003,9.838699e+001
3.219627e+003,9.842095e+001
3.232162e+003,9.841225e+001
3.244697e+003,9.827344e+001
3.257232e+003,9.830967e+001
3.269768e+003,9.832253e+001
3.282303e+003,9.829303e+001
3.294838e+003,9.823868e+001
3.307373e+003,9.826520e+001
3.319909e+003,9.826862e+001
3.332444e+003,9.825177e+001
3.344979e+003,9.826247e+001
3.357514e+003,9.831215e+001
3.370050e+003,9.836073e+001
3.382585e+003,9.837614e+001
3.395120e+003,9.833456e+001
3.407655e+003,9.823942e+001
3.420190e+003,9.801964e+001
3.432726e+003,9.769659e+001
3.445261e+003,9.776394e+001
3.457796e+003,9.798872e+001
3.470332e+003,9.834515e+001
3.482867e+003,9.846574e+001
3.495402e+003,9.832002e+001
3.507937e+003,9.842461e+001
3.520472e+003,9.857691e+001
3.533008e+003,9.853748e+001
3.545543e+003,9.848328e+001
3.558078e+003,9.864739e+001
3.570613e+003,9.865263e+001
3.583148e+003,9.876180e+001
3.595684e+003,9.889778e+001
3.608219e+003,9.863130e+001
3.620754e+003,9.893143e+001
3.633290e+003,9.883999e+001
3.645825e+003,9.923293e+001
3.658360e+003,9.898907e+001
3.670895e+003,9.931882e+001
3.683430e+003,9.912056e+001
3.695966e+003,9.913315e+001
3.708501e+003,9.904401e+001
3.721036e+003,9.910931e+001
3.733571e+003,9.929807e+001
3.746107e+003,9.922398e+001
3.758642e+003,9.923205e+001
3.771177e+003,9.926534e+001
3.783712e+003,9.915909e+001
3.796248e+003,9.930851e+001
3.808783e+003,9.925114e+001
3.821318e+003,9.925894e+001
3.833853e+003,9.916630e+001
3.846388e+003,9.914925e+001
3.858924e+003,9.902184e+001
3.871459e+003,9.918158e+001
3.883994e+003,9.907352e+001
3.896529e+003,9.908186e+001
3.909065e+003,9.905798e+001
3.921600e+003,9.928833e+001
3.934135e+003,9.901159e+001
3.946670e+003,9.905898e+001
3.959206e+003,9.909660e+001
3.971741e+003,9.906718e+001
3.984276e+003,9.916132e+001
3.996811e+003,9.909494e+001
4.000668e+003,0.000000e+000

File: PCL_NaOH_3_3.CSV
3.991989e+002,0.000000e+000
4.117341e+002,0.000000e+000
4.242693e+002,0.000000e+000
4.368046e+002,0.000000e+000
4.493398e+002,0.000000e+000
4.618751e+002,0.000000e+000
4.744103e+002,0.000000e+000
4.869455e+002,0.000000e+000
4.994808e+002,0.000000e+000
5.120160e+002,0.000000e+000
5.245512e+002,0.000000e+000
5.370865e+002,0.000000e+000
5.496217e+002,8.504383e+001
5.621569e+002,8.535284e+001
5.746922e+002,8.025402e+001
5.872274e+002,7.939067e+001
5.997626e+002,8.368318e+001
6.122979e+002,8.560482e+001
6.248331e+002,8.611459e+001
6.373683e+002,8.637923e+001
6.499036e+002,8.597748e+001
6.624388e+002,8.592016e+001
6.749741e+002,8.548035e+001
6.875093e+002,8.371114e+001
7.000445e+002,7.884161e+001
7.125798e+002,7.426177e+001
7.251150e+002,6.435935e+001
7.376502e+002,7.168194e+001
7.501855e+002,8.586891e+001
7.627207e+002,8.769794e+001
7.752559e+002,8.565259e+001
7.877911e+002,8.790132e+001
8.003264e+002,8.776755e+001
8.128616e+002,8.794212e+001
8.253969e+002,8.736910e+001
8.379321e+002,8.044862e+001
8.504673e+002,8.599076e+001
8.630026e+002,8.562530e+001
8.755378e+002,8.517799e+001
8.880731e+002,8.459011e+001
9.006083e+002,8.381098e+001
9.131435e+002,8.145037e+001
9.256788e+002,7.584661e+001
9.382140e+002,7.244956e+001
9.507492e+002,6.833855e+001
9.632844e+002,5.864385e+001
9.758197e+002,7.575137e+001
9.883549e+002,7.783360e+001
1.000890e+003,7.728771e+001
1.013425e+003,7.474127e+001
1.025961e+003,6.902898e+001
1.038496e+003,5.546498e+001
1.051031e+003,5.898566e+001
1.063566e+003,6.555692e+001
1.076102e+003,7.283582e+001
1.088637e+003,6.363810e+001
1.101172e+003,5.889381e+001
1.113707e+003,6.504690e+001
1.126243e+003,6.928972e+001
1.138778e+003,5.420077e+001
1.151313e+003,3.235679e+001
1.163848e+003,2.542834e+001
1.176383e+003,2.926577e+001
1.188919e+003,3.662565e+001
1.201454e+003,6.695509e+001
1.213989e+003,7.196606e+001
1.226524e+003,6.390287e+001
1.239060e+003,3.998159e+001
1.251595e+003,7.133335e+001
1.264130e+003,7.895235e+001
1.276665e+003,7.747223e+001
1.289201e+003,6.510784e+001
1.301736e+003,7.489658e+001
1.314271e+003,8.397618e+001
1.326806e+003,8.535541e+001
1.339342e+003,8.647473e+001
1.351877e+003,7.550392e+001
1.364412e+003,6.074504e+001
1.376947e+003,7.446324e+001
1.389482e+003,8.252348e+001
1.402018e+003,8.182321e+001
1.414553e+003,7.651366e+001
1.427088e+003,8.691992e+001
1.439623e+003,8.753752e+001
1.452159e+003,8.663932e+001
1.464694e+003,7.994970e+001
1.477229e+003,8.355099e+001
1.489764e+003,9.560621e+001
1.502300e+003,9.655435e+001
1.514835e+003,9.688409e+001
1.527370e+003,9.702089e+001
1.539905e+003,9.718001e+001
1.552441e+003,9.653452e+001
1.564976e+003,9.632840e+001
1.577511e+003,9.642873e+001
1.590046e+003,9.608488e+001
1.602581e+003,9.567616e+001
1.615117e+003,9.503965e+001
1.627652e+003,9.428077e+001
1.640187e+003,9.349402e+001
1.652722e+003,9.301280e+001
1.665258e+003,9.016714e+001
1.677793e+003,8.407375e+001
1.690328e+003,7.452615e+001
1.702863e+003,6.317990e+001
1.715399e+003,2.876495e+001
1.727934e+003,3.385375e+001
1.740469e+003,6.505974e+001
1.753004e+003,9.068066e+001
1.765539e+003,9.431072e+001
1.778075e+003,9.581541e+001
1.790610e+003,9.697403e+001
1.803145e+003,9.775450e+001
1.815680e+003,9.827862e+001
1.828216e+003,9.837196e+001
1.840751e+003,9.842104e+001
1.853286e+003,9.875081e+001
1.865821e+003,9.870335e+001
1.878357e+003,9.881719e+001
1.890892e+003,9.870499e+001
1.903427e+003,9.878526e+001
1.915962e+003,9.863573e+001
1.928498e+003,9.878611e+001
1.941033e+003,9.884914e+001
1.953568e+003,9.880695e+001
1.966103e+003,9.881617e+001
1.978638e+003,9.824870e+001
1.991174e+003,9.870685e+001
2.003709e+003,9.866634e+001
2.016244e+003,9.874994e+001
2.028779e+003,9.871712e+001
2.041315e+003,9.863789e+001
2.053850e+003,9.870256e+001
2.066385e+003,9.868548e+001
2.078920e+003,9.832706e+001
2.091456e+003,9.845692e+001
2.103991e+003,9.850172e+001
2.116526e+003,9.868936e+001
2.129061e+003,9.905396e+001
2.141596e+003,9.907321e+001
2.154132e+003,9.912198e+001
2.166667e+003,9.853129e+001
2.179202e+003,9.866241e+001
2.191738e+003,9.888969e+001
2.204273e+003,9.897173e+001
2.216808e+003,9.873364e+001
2.229343e+003,9.878457e+001
2.241878e+003,9.887756e+001
2.254414e+003,9.880581e+001
2.266949e+003,9.871795e+001
2.279484e+003,9.852355e+001
2.292019e+003,9.828186e+001
2.304555e+003,9.774144e+001
2.317090e+003,9.653041e+001
2.329625e+003,9.537951e+001
2.342160e+003,9.464546e+001
2.354696e+003,9.438148e+001
2.367231e+003,9.480461e+001
2.379766e+003,9.785368e+001
2.392301e+003,9.890820e+001
2.404836e+003,9.892014e+001
2.417372e+003,9.883550e+001
2.429907e+003,9.903517e+001
2.442442e+003,9.888894e+001
2.454977e+003,9.894708e+001
2.467513e+003,9.885091e+001
2.480048e+003,9.888975e+001
2.492583e+003,9.900887e+001
2.505118e+003,9.897684e+001
2.517654e+003,9.893591e+001
2.530189e+003,9.874068e+001
2.542724e+003,9.881013e+001
2.555259e+003,9.888023e+001
2.567794e+003,9.876741e+001
2.580330e+003,9.868343e+001
2.592865e+003,9.867610e+001
2.605400e+003,9.868282e+001
2.617936e+003,9.865281e+001
2.630471e+003,9.860699e+001
2.643006e+003,9.841203e+001
2.655541e+003,9.845345e+001
2.668076e+003,9.851804e+001
2.680612e+003,9.845573e+001
2.693147e+003,9.848956e+001
2.705682e+003,9.841269e+001
2.718217e+003,9.837538e+001
2.730753e+003,9.833116e+001
2.743288e+003,9.831288e+001
2.755823e+003,9.822562e+001
2.768358e+003,9.803966e+001
2.780894e+003,9.797738e+001
2.793429e+003,9.775068e+001
2.805964e+003,9.746125e+001
2.818499e+003,9.668285e+001
2.831034e+003,9.579206e+001
2.843570e+003,9.309409e+001
2.856105e+003,8.493058e+001
2.868640e+003,8.107537e+001
2.881175e+003,8.845046e+001
2.893711e+003,8.439698e+001
2.906246e+003,8.363302e+001
2.918781e+003,7.923857e+001
2.931316e+003,7.436066e+001
2.943852e+003,7.150378e+001
2.956387e+003,7.697076e+001
2.968922e+003,8.693655e+001
2.981457e+003,9.381895e+001
2.993992e+003,9.658321e+001
3.006528e+003,9.763414e+001
3.019063e+003,9.804506e+001
3.031598e+003,9.820528e+001
3.044134e+003,9.828593e+001
3.056669e+003,9.841564e+001
3.069204e+003,9.841560e+001
3.081739e+003,9.848685e+001
3.094274e+003,9.849811e+001
3.106810e+003,9.845200e+001
3.119345e+003,9.852054e+001
3.131880e+003,9.856082e+001
3.144415e+003,9.858862e+001
3.156950e+003,9.853581e+001
3.169486e+003,9.857373e+001
3.182021e+003,9.861795e+001
3.194556e+003,9.851565e+001
3.207092e+003,9.852679e+001
3.219627e+003,9.852966e+001
3.232162e+003,9.856441e+001
3.244697e+003,9.848421e+001
3.257232e+003,9.846582e+001
3.269768e+003,9.853975e+001
3.282303e+003,9.848061e+001
3.294838e+003,9.840509e+001
3.307373e+003,9.855119e+001
3.319909e+003,9.847588e+001
3.332444e+003,9.847820e+001
3.344979e+003,9.841476e+001
3.357514e+003,9.847398e+001
3.370050e+003,9.849751e+001
3.382585e+003,9.853043e+001
3.395120e+003,9.840068e+001
3.407655e+003,9.845702e+001
3.420190e+003,9.817216e+001
3.432726e+003,9.794833e+001
3.445261e+003,9.794701e+001
3.457796e+003,9.809082e+001
3.470332e+003,9.837919e+001
3.482867e+003,9.868490e+001
3.495402e+003,9.856460e+001
3.507937e+003,9.868962e+001
3.520472e+003,9.875134e+001
3.533008e+003,9.870321e+001
3.545543e+003,9.863122e+001
3.558078e+003,9.876584e+001
3.570613e+003,9.885661e+001
3.583148e+003,9.885337e+001
3.595684e+003,9.896178e+001
3.608219e+003,9.878833e+001
3.620754e+003,9.910303e+001
3.633290e+003,9.884966e+001
3.645825e+003,9.928217e+001
3.658360e+003,9.917263e+001
3.670895e+003,9.932674e+001
3.683430e+003,9.914556e+001
3.695966e+003,9.912593e+001
3.708501e+003,9.927162e+001
3.721036e+003,9.924268e+001
3.733571e+003,9.921616e+001
3.746107e+003,9.941182e+001
3.758642e+003,9.944820e+001
3.771177e+003,9.937902e+001
3.783712e+003,9.939118e+001
3.796248e+003,9.944161e+001
3.808783e+003,9.954837e+001
3.821318e+003,9.947762e+001
3.833853e+003,9.920806e+001
3.846388e+003,9.933236e+001
3.858924e+003,9.929276e+001
3.871459e+003,9.927779e+001
3.883994e+003,9.920968e+001
3.896529e+003,9.922645e+001
3.909065e+003,9.926878e+001
3.921600e+003,9.927590e+001
3.934135e+003,9.919585e+001
3.946670e+003,9.931056e+001
3.959206e+003,9.912189e+001
3.971741e+003,9.932146e+001
3.984276e+003,9.930146e+001
3.996811e+003,9.917729e+001
4.000668e+003,0.000000e+000