Folder: Knight-Campus/FTIR Data (PCL)/All Data

Note: README.md
# Algorithm to Process and Filter the 7000 Protein Panel from SOMALogic

The algorithm described in this post filters the SOMALogic Protein Sample for uniprotIDs that are associated with bone health. Once the proteins have been filters, the algorithm produces venn diagrams to visualize the overlap between various subgroups within the custom panel. 

The Code will be explained below:

```python
import pandas as pd 
import numpy as np 
import matplotlib.pyplot as plt
from matplotlib_venn import venn3, venn2
from venn import venn
```

Above are the libraries imported to load in data, compile the data into a dataset, and analyze the data to produce venn diagrams.

```python
SomaLogic = pd.read_csv("~/Desktop/Knight Campus/ML Code/data.csv")
df = pd.read_csv("~/Desktop/Knight Campus/ML Code/data.csv")
SomaLogic = SomaLogic.fillna(0)
SomaLogic = SomaLogic.replace("X", 1)
df = df.fillna(0)
df = df.replace("X", 1)
```

The block of code above reads in the original dataset as a csv file and replaces all the occurances of NA with 0 and all of the occurances of X with 1. The original dataset indicated all of the SOMALogic proteins that correlated with 'Cardiovascular Disease', 'Inflammation and Immune Response', 'Metabolic Disease', 'Oncology', 'Combine Immune and Metabolic', 'Previous association with age', 'Previous association with Sex', 'Drug Targets', 'Bone Related or of interest', 'NIHM Supplemental Data', 'Aging and Longevity pQTLs', 'Rat Cytokine/Chemokine Luminex', 'Known of Interest', and 'Inflammatory Serum Protein Profiling of Patients'.

File: PCL_NaOH_1_3.CSV
3.991989e+002,0.000000e+000
4.117341e+002,0.000000e+000
4.242693e+002,0.000000e+000
4.368046e+002,0.000000e+000
4.493398e+002,0.000000e+000
4.618751e+002,0.000000e+000
4.744103e+002,0.000000e+000
4.869455e+002,0.000000e+000
4.994808e+002,0.000000e+000
5.120160e+002,0.000000e+000
5.245512e+002,0.000000e+000
5.370865e+002,0.000000e+000
5.496217e+002,8.351540e+001
5.621569e+002,8.342741e+001
5.746922e+002,7.887549e+001
5.872274e+002,7.619606e+001
5.997626e+002,8.295670e+001
6.122979e+002,8.386404e+001
6.248331e+002,8.433875e+001
6.373683e+002,8.482960e+001
6.499036e+002,8.437366e+001
6.624388e+002,8.473630e+001
6.749741e+002,8.414830e+001
6.875093e+002,8.214052e+001
7.000445e+002,7.710482e+001
7.125798e+002,7.236144e+001
7.251150e+002,6.231290e+001
7.376502e+002,6.982483e+001
7.501855e+002,8.368233e+001
7.627207e+002,8.558390e+001
7.752559e+002,8.348724e+001
7.877911e+002,8.571516e+001
8.003264e+002,8.560553e+001
8.128616e+002,8.564360e+001
8.253969e+002,8.515710e+001
8.379321e+002,7.825194e+001
8.504673e+002,8.360504e+001
8.630026e+002,8.323368e+001
8.755378e+002,8.285410e+001
8.880731e+002,8.226564e+001
9.006083e+002,8.145609e+001
9.131435e+002,7.905069e+001
9.256788e+002,7.343314e+001
9.382140e+002,6.992742e+001
9.507492e+002,6.558618e+001
9.632844e+002,5.570769e+001
9.758197e+002,7.317907e+001
9.883549e+002,7.522930e+001
1.000890e+003,7.454205e+001
1.013425e+003,7.191615e+001
1.025961e+003,6.621973e+001
1.038496e+003,5.248681e+001
1.051031e+003,5.651973e+001
1.063566e+003,6.249614e+001
1.076102e+003,7.008162e+001
1.088637e+003,6.085560e+001
1.101172e+003,5.601553e+001
1.113707e+003,6.219031e+001
1.126243e+003,6.640823e+001
1.138778e+003,5.088724e+001
1.151313e+003,2.875675e+001
1.163848e+003,2.246201e+001
1.176383e+003,2.677693e+001
1.188919e+003,3.349754e+001
1.201454e+003,6.404973e+001
1.213989e+003,6.917390e+001
1.226524e+003,6.098188e+001
1.239060e+003,3.743187e+001
1.251595e+003,6.829023e+001
1.264130e+003,7.634361e+001
1.276665e+003,7.512012e+001
1.289201e+003,6.315505e+001
1.301736e+003,7.279425e+001
1.314271e+003,8.208023e+001
1.326806e+003,8.338033e+001
1.339342e+003,8.436218e+001
1.351877e+003,7.352061e+001
1.364412e+003,5.865967e+001
1.376947e+003,7.198105e+001
1.389482e+003,8.049179e+001
1.402018e+003,7.990434e+001
1.414553e+003,7.512273e+001
1.427088e+003,8.508007e+001
1.439623e+003,8.545148e+001
1.452159e+003,8.431451e+001
1.464694e+003,7.783057e+001
1.477229e+003,8.205618e+001
1.489764e+003,9.382756e+001
1.502300e+003,9.496900e+001
1.514835e+003,9.539292e+001
1.527370e+003,9.539688e+001
1.539905e+003,9.542077e+001
1.552441e+003,9.529830e+001
1.564976e+003,9.522338e+001
1.577511e+003,9.502626e+001
1.590046e+003,9.480344e+001
1.602581e+003,9.434489e+001
1.615117e+003,9.362108e+001
1.627652e+003,9.267356e+001
1.640187e+003,9.182281e+001
1.652722e+003,9.048556e+001
1.665258e+003,8.816029e+001
1.677793e+003,8.193383e+001
1.690328e+003,7.220938e+001
1.702863e+003,6.074853e+001
1.715399e+003,2.576692e+001
1.727934e+003,3.127072e+001
1.740469e+003,6.252388e+001
1.753004e+003,8.881443e+001
1.765539e+003,9.255038e+001
1.778075e+003,9.397692e+001
1.790610e+003,9.508696e+001
1.803145e+003,9.582225e+001
1.815680e+003,9.634526e+001
1.828216e+003,9.648087e+001
1.840751e+003,9.646458e+001
1.853286e+003,9.672061e+001
1.865821e+003,9.670011e+001
1.878357e+003,9.677379e+001
1.890892e+003,9.674826e+001
1.903427e+003,9.663053e+001
1.915962e+003,9.654137e+001
1.928498e+003,9.670304e+001
1.941033e+003,9.676455e+001
1.953568e+003,9.661584e+001
1.966103e+003,9.658896e+001
1.978638e+003,9.608461e+001
1.991174e+003,9.650122e+001
2.003709e+003,9.651023e+001
2.016244e+003,9.678174e+001
2.028779e+003,9.631982e+001
2.041315e+003,9.639480e+001
2.053850e+003,9.656866e+001
2.066385e+003,9.636669e+001
2.078920e+003,9.618066e+001
2.091456e+003,9.636172e+001
2.103991e+003,9.620559e+001
2.116526e+003,9.635632e+001
2.129061e+003,9.690123e+001
2.141596e+003,9.684070e+001
2.154132e+003,9.699229e+001
2.166667e+003,9.658019e+001
2.179202e+003,9.686169e+001
2.191738e+003,9.662425e+001
2.204273e+003,9.652467e+001
2.216808e+003,9.646750e+001
2.229343e+003,9.659188e+001
2.241878e+003,9.653715e+001
2.254414e+003,9.657897e+001
2.266949e+003,9.661015e+001
2.279484e+003,9.644674e+001
2.292019e+003,9.637841e+001
2.304555e+003,9.641717e+001
2.317090e+003,9.624310e+001
2.329625e+003,9.648488e+001
2.342160e+003,9.629311e+001
2.354696e+003,9.646674e+001
2.367231e+003,9.678284e+001
2.379766e+003,9.675282e+001
2.392301e+003,9.679616e+001
2.404836e+003,9.670141e+001
2.417372e+003,9.663949e+001
2.429907e+003,9.678685e+001
2.442442e+003,9.674491e+001
2.454977e+003,9.668569e+001
2.467513e+003,9.664978e+001
2.480048e+003,9.664132e+001
2.492583e+003,9.676570e+001
2.505118e+003,9.679223e+001
2.517654e+003,9.669601e+001
2.530189e+003,9.654533e+001
2.542724e+003,9.654583e+001
2.555259e+003,9.666330e+001
2.567794e+003,9.656477e+001
2.580330e+003,9.649851e+001
2.592865e+003,9.651379e+001
2.605400e+003,9.651141e+001
2.617936e+003,9.640502e+001
2.630471e+003,9.638950e+001
2.643006e+003,9.628786e+001
2.655541e+003,9.632645e+001
2.668076e+003,9.637151e+001
2.680612e+003,9.630507e+001
2.693147e+003,9.628334e+001
2.705682e+003,9.630659e+001
2.718217e+003,9.621147e+001
2.730753e+003,9.614166e+001
2.743288e+003,9.608836e+001
2.755823e+003,9.607050e+001
2.768358e+003,9.587619e+001
2.780894e+003,9.579218e+001
2.793429e+003,9.557055e+001
2.805964e+003,9.528181e+001
2.818499e+003,9.445121e+001
2.831034e+003,9.348255e+001
2.843570e+003,9.071341e+001
2.856105e+003,8.271429e+001
2.868640e+003,7.890070e+001
2.881175e+003,8.626242e+001
2.893711e+003,8.226998e+001
2.906246e+003,8.133990e+001
2.918781e+003,7.692850e+001
2.931316e+003,7.217561e+001
2.943852e+003,6.938953e+001
2.956387e+003,7.458595e+001
2.968922e+003,8.471693e+001
2.981457e+003,9.180189e+001
2.993992e+003,9.473799e+001
3.006528e+003,9.579537e+001
3.019063e+003,9.613850e+001
3.031598e+003,9.637444e+001
3.044134e+003,9.651799e+001
3.056669e+003,9.656218e+001
3.069204e+003,9.666568e+001
3.081739e+003,9.669736e+001
3.094274e+003,9.667055e+001
3.106810e+003,9.666247e+001
3.119345e+003,9.671137e+001
3.131880e+003,9.676707e+001
3.144415e+003,9.678486e+001
3.156950e+003,9.679666e+001
3.169486e+003,9.677998e+001
3.182021e+003,9.684440e+001
3.194556e+003,9.677586e+001
3.207092e+003,9.683501e+001
3.219627e+003,9.683882e+001
3.232162e+003,9.684698e+001
3.244697e+003,9.683127e+001
3.257232e+003,9.673759e+001
3.269768e+003,9.674622e+001
3.282303e+003,9.684112e+001
3.294838e+003,9.671983e+001
3.307373e+003,9.686214e+001
3.319909e+003,9.687119e+001
3.332444e+003,9.678973e+001
3.344979e+003,9.677795e+001
3.357514e+003,9.681102e+001
3.370050e+003,9.682006e+001
3.382585e+003,9.690989e+001
3.395120e+003,9.676809e+001
3.407655e+003,9.678726e+001
3.420190e+003,9.655511e+001
3.432726e+003,9.619897e+001
3.445261e+003,9.621983e+001
3.457796e+003,9.647919e+001
3.470332e+003,9.666080e+001
3.482867e+003,9.689818e+001
3.495402e+003,9.673672e+001
3.507937e+003,9.686817e+001
3.520472e+003,9.697639e+001
3.533008e+003,9.690392e+001
3.545543e+003,9.678300e+001
3.558078e+003,9.687727e+001
3.570613e+003,9.689164e+001
3.583148e+003,9.685984e+001
3.595684e+003,9.725346e+001
3.608219e+003,9.692274e+001
3.620754e+003,9.706026e+001
3.633290e+003,9.700095e+001
3.645825e+003,9.716898e+001
3.658360e+003,9.712105e+001
3.670895e+003,9.717256e+001
3.683430e+003,9.715800e+001
3.695966e+003,9.717224e+001
3.708501e+003,9.716431e+001
3.721036e+003,9.730971e+001
3.733571e+003,9.740925e+001
3.746107e+003,9.720853e+001
3.758642e+003,9.734649e+001
3.771177e+003,9.718880e+001
3.783712e+003,9.734138e+001
3.796248e+003,9.733402e+001
3.808783e+003,9.738021e+001
3.821318e+003,9.735966e+001
3.833853e+003,9.716071e+001
3.846388e+003,9.721416e+001
3.858924e+003,9.713634e+001
3.871459e+003,9.720187e+001
3.883994e+003,9.719843e+001
3.896529e+003,9.702605e+001
3.909065e+003,9.716196e+001
3.921600e+003,9.731191e+001
3.934135e+003,9.717598e+001
3.946670e+003,9.720808e+001
3.959206e+003,9.720596e+001
3.971741e+003,9.711481e+001
3.984276e+003,9.725405e+001
3.996811e+003,9.708925e+001
4.000668e+003,0.000000e+000

File: PCL_NaOH_2_2.CSV
3.991989e+002,0.000000e+000
4.117341e+002,0.000000e+000
4.242693e+002,0.000000e+000
4.368046e+002,0.000000e+000
4.493398e+002,0.000000e+000
4.618751e+002,0.000000e+000
4.744103e+002,0.000000e+000
4.869455e+002,0.000000e+000
4.994808e+002,0.000000e+000
5.120160e+002,0.000000e+000
5.245512e+002,0.000000e+000
5.370865e+002,0.000000e+000
5.496217e+002,8.609876e+001
5.621569e+002,8.727974e+001
5.746922e+002,7.918922e+001
5.872274e+002,7.937408e+001
5.997626e+002,8.406679e+001
6.122979e+002,8.497349e+001
6.248331e+002,8.535352e+001
6.373683e+002,8.632307e+001
6.499036e+002,8.585902e+001
6.624388e+002,8.602158e+001
6.749741e+002,8.554680e+001
6.875093e+002,8.373681e+001
7.000445e+002,7.851579e+001
7.125798e+002,7.380773e+001
7.251150e+002,6.384647e+001
7.376502e+002,7.169090e+001
7.501855e+002,8.550174e+001
7.627207e+002,8.736073e+001
7.752559e+002,8.529335e+001
7.877911e+002,8.758861e+001
8.003264e+002,8.750024e+001
8.128616e+002,8.752549e+001
8.253969e+002,8.695942e+001
8.379321e+002,8.012125e+001
8.504673e+002,8.551547e+001
8.630026e+002,8.511084e+001
8.755378e+002,8.469522e+001
8.880731e+002,8.397545e+001
9.006083e+002,8.321448e+001
9.131435e+002,8.089565e+001
9.256788e+002,7.522680e+001
9.382140e+002,7.164983e+001
9.507492e+002,6.735647e+001
9.632844e+002,5.731578e+001
9.758197e+002,7.473123e+001
9.883549e+002,7.670914e+001
1.000890e+003,7.604172e+001
1.013425e+003,7.348232e+001
1.025961e+003,6.780000e+001
1.038496e+003,5.411338e+001
1.051031e+003,5.809940e+001
1.063566e+003,6.424732e+001
1.076102e+003,7.181033e+001
1.088637e+003,6.255046e+001
1.101172e+003,5.784103e+001
1.113707e+003,6.407826e+001
1.126243e+003,6.845483e+001
1.138778e+003,5.307781e+001
1.151313e+003,3.111116e+001
1.163848e+003,2.443467e+001
1.176383e+003,2.833786e+001
1.188919e+003,3.514475e+001
1.201454e+003,6.608260e+001
1.213989e+003,7.127670e+001
1.226524e+003,6.307935e+001
1.239060e+003,3.916549e+001
1.251595e+003,7.040871e+001
1.264130e+003,7.841951e+001
1.276665e+003,7.681471e+001
1.289201e+003,6.450774e+001
1.301736e+003,7.427332e+001
1.314271e+003,8.357090e+001
1.326806e+003,8.497987e+001
1.339342e+003,8.602627e+001
1.351877e+003,7.498730e+001
1.364412e+003,6.011315e+001
1.376947e+003,7.370326e+001
1.389482e+003,8.224718e+001
1.402018e+003,8.163445e+001
1.414553e+003,7.648207e+001
1.427088e+003,8.687267e+001
1.439623e+003,8.741470e+001
1.452159e+003,8.638845e+001
1.464694e+003,7.960398e+001
1.477229e+003,8.342722e+001
1.489764e+003,9.541201e+001
1.502300e+003,9.652518e+001
1.514835e+003,9.690054e+001
1.527370e+003,9.704742e+001
1.539905e+003,9.734629e+001
1.552441e+003,9.696844e+001
1.564976e+003,9.695876e+001
1.577511e+003,9.677698e+001
1.590046e+003,9.645759e+001
1.602581e+003,9.600313e+001
1.615117e+003,9.530810e+001
1.627652e+003,9.441306e+001
1.640187e+003,9.352242e+001
1.652722e+003,9.279762e+001
1.665258e+003,8.997969e+001
1.677793e+003,8.374104e+001
1.690328e+003,7.398275e+001
1.702863e+003,6.233896e+001
1.715399e+003,2.734362e+001
1.727934e+003,3.318914e+001
1.740469e+003,6.448322e+001
1.753004e+003,9.042526e+001
1.765539e+003,9.413155e+001
1.778075e+003,9.568678e+001
1.790610e+003,9.685509e+001
1.803145e+003,9.769637e+001
1.815680e+003,9.817765e+001
1.828216e+003,9.838060e+001
1.840751e+003,9.831728e+001
1.853286e+003,9.864561e+001
1.865821e+003,9.869061e+001
1.878357e+003,9.869718e+001
1.890892e+003,9.870205e+001
1.903427e+003,9.861841e+001
1.915962e+003,9.867576e+001
1.928498e+003,9.865313e+001
1.941033e+003,9.875849e+001
1.953568e+003,9.886330e+001
1.966103e+003,9.872525e+001
1.978638e+003,9.826288e+001
1.991174e+003,9.876558e+001
2.003709e+003,9.867777e+001
2.016244e+003,9.854360e+001
2.028779e+003,9.858095e+001
2.041315e+003,9.839691e+001
2.053850e+003,9.871888e+001
2.066385e+003,9.852703e+001
2.078920e+003,9.833166e+001
2.091456e+003,9.828262e+001
2.103991e+003,9.831876e+001
2.116526e+003,9.854684e+001
2.129061e+003,9.896329e+001
2.141596e+003,9.892776e+001
2.154132e+003,9.905618e+001
2.166667e+003,9.844893e+001
2.179202e+003,9.879318e+001
2.191738e+003,9.880916e+001
2.204273e+003,9.909043e+001
2.216808e+003,9.864808e+001
2.229343e+003,9.878059e+001
2.241878e+003,9.861778e+001
2.254414e+003,9.879939e+001
2.266949e+003,9.881366e+001
2.279484e+003,9.864364e+001
2.292019e+003,9.837000e+001
2.304555e+003,9.845704e+001
2.317090e+003,9.833114e+001
2.329625e+003,9.842123e+001
2.342160e+003,9.813323e+001
2.354696e+003,9.830350e+001
2.367231e+003,9.859558e+001
2.379766e+003,9.875420e+001
2.392301e+003,9.887218e+001
2.404836e+003,9.880761e+001
2.417372e+003,9.875149e+001
2.429907e+003,9.886192e+001
2.442442e+003,9.875558e+001
2.454977e+003,9.884457e+001
2.467513e+003,9.883919e+001
2.480048e+003,9.880975e+001
2.492583e+003,9.887901e+001
2.505118e+003,9.891885e+001
2.517654e+003,9.886514e+001
2.530189e+003,9.870238e+001
2.542724e+003,9.870531e+001
2.555259e+003,9.880244e+001
2.567794e+003,9.872851e+001
2.580330e+003,9.864673e+001
2.592865e+003,9.875684e+001
2.605400e+003,9.861959e+001
2.617936e+003,9.857087e+001
2.630471e+003,9.858901e+001
2.643006e+003,9.833610e+001
2.655541e+003,9.839013e+001
2.668076e+003,9.844760e+001
2.680612e+003,9.840961e+001
2.693147e+003,9.840466e+001
2.705682e+003,9.837627e+001
2.718217e+003,9.834357e+001
2.730753e+003,9.830731e+001
2.743288e+003,9.824013e+001
2.755823e+003,9.817803e+001
2.768358e+003,9.797775e+001
2.780894e+003,9.790439e+001
2.793429e+003,9.776160e+001
2.805964e+003,9.740828e+001
2.818499e+003,9.661276e+001
2.831034e+003,9.570396e+001
2.843570e+003,9.301830e+001
2.856105e+003,8.489009e+001
2.868640e+003,8.094000e+001
2.881175e+003,8.833262e+001
2.893711e+003,8.430289e+001
2.906246e+003,8.353207e+001
2.918781e+003,7.933894e+001
2.931316e+003,7.434309e+001
2.943852e+003,7.120733e+001
2.956387e+003,7.662691e+001
2.968922e+003,8.685091e+001
2.981457e+003,9.372765e+001
2.993992e+003,9.652975e+001
3.006528e+003,9.763444e+001
3.019063e+003,9.800307e+001
3.031598e+003,9.824566e+001
3.044134e+003,9.836915e+001
3.056669e+003,9.850594e+001
3.069204e+003,9.853189e+001
3.081739e+003,9.860448e+001
3.094274e+003,9.857691e+001
3.106810e+003,9.855870e+001
3.119345e+003,9.867850e+001
3.131880e+003,9.864121e+001
3.144415e+003,9.861454e+001
3.156950e+003,9.863367e+001
3.169486e+003,9.861239e+001
3.182021e+003,9.864622e+001
3.194556e+003,9.870073e+001
3.207092e+003,9.871292e+001
3.219627e+003,9.877376e+001
3.232162e+003,9.874171e+001
3.244697e+003,9.863205e+001
3.257232e+003,9.860413e+001
3.269768e+003,9.862283e+001
3.282303e+003,9.856994e+001
3.294838e+003,9.867930e+001
3.307373e+003,9.875626e+001
3.319909e+003,9.869221e+001
3.332444e+003,9.861898e+001
3.344979e+003,9.863734e+001
3.357514e+003,9.871449e+001
3.370050e+003,9.868422e+001
3.382585e+003,9.870266e+001
3.395120e+003,9.859060e+001
3.407655e+003,9.874265e+001
3.420190e+003,9.843578e+001
3.432726e+003,9.805394e+001
3.445261e+003,9.801466e+001
3.457796e+003,9.843375e+001
3.470332e+003,9.854987e+001
3.482867e+003,9.882448e+001
3.495402e+003,9.862957e+001
3.507937e+003,9.882171e+001
3.520472e+003,9.886078e+001
3.533008e+003,9.887289e+001
3.545543e+003,9.874430e+001
3.558078e+003,9.899848e+001
3.570613e+003,9.906277e+001
3.583148e+003,9.909442e+001
3.595684e+003,9.922120e+001
3.608219e+003,9.887598e+001
3.620754e+003,9.933456e+001
3.633290e+003,9.915574e+001
3.645825e+003,9.940603e+001
3.658360e+003,9.929386e+001
3.670895e+003,9.936525e+001
3.683430e+003,9.943523e+001
3.695966e+003,9.950685e+001
3.708501e+003,9.951068e+001
3.721036e+003,9.950108e+001
3.733571e+003,9.963908e+001
3.746107e+003,9.941424e+001
3.758642e+003,9.951316e+001
3.771177e+003,9.942545e+001
3.783712e+003,9.950481e+001
3.796248e+003,9.969881e+001
3.808783e+003,9.949604e+001
3.821318e+003,9.978036e+001
3.833853e+003,9.944734e+001
3.846388e+003,9.940012e+001
3.858924e+003,9.932972e+001
3.871459e+003,9.943495e+001
3.883994e+003,9.939736e+001
3.896529e+003,9.927953e+001
3.909065e+003,9.942750e+001
3.921600e+003,9.947025e+001
3.934135e+003,9.939070e+001
3.946670e+003,9.943571e+001
3.959206e+003,9.932865e+001
3.971741e+003,9.935249e+001
3.984276e+003,9.941077e+001
3.996811e+003,9.931709e+001
4.000668e+003,0.000000e+000

File: PCL_NaOH_2_3.CSV
3.991989e+002,0.000000e+000
4.117341e+002,0.000000e+000
4.242693e+002,0.000000e+000
4.368046e+002,0.000000e+000
4.493398e+002,0.000000e+000
4.618751e+002,0.000000e+000
4.744103e+002,0.000000e+000
4.869455e+002,0.000000e+000
4.994808e+002,0.000000e+000
5.120160e+002,0.000000e+000
5.245512e+002,0.000000e+000
5.370865e+002,0.000000e+000
5.496217e+002,8.424376e+001
5.621569e+002,8.209379e+001
5.746922e+002,7.831475e+001
5.872274e+002,7.806052e+001
5.997626e+002,8.401772e+001
6.122979e+002,8.549839e+001
6.248331e+002,8.566847e+001
6.373683e+002,8.680352e+001
6.499036e+002,8.627559e+001
6.624388e+002,8.631116e+001
6.749741e+002,8.583022e+001
6.875093e+002,8.380671e+001
7.000445e+002,7.831925e+001
7.125798e+002,7.341145e+001
7.251150e+002,6.322583e+001
7.376502e+002,6.952818e+001
7.501855e+002,8.551501e+001
7.627207e+002,8.744807e+001
7.752559e+002,8.511028e+001
7.877911e+002,8.770374e+001
8.003264e+002,8.766824e+001
8.128616e+002,8.769337e+001
8.253969e+002,8.710950e+001
8.379321e+002,7.946641e+001
8.504673e+002,8.570567e+001
8.630026e+002,8.525684e+001
8.755378e+002,8.478844e+001
8.880731e+002,8.418417e+001
9.006083e+002,8.343623e+001
9.131435e+002,8.088667e+001
9.256788e+002,7.495550e+001
9.382140e+002,7.106145e+001
9.507492e+002,6.662714e+001
9.632844e+002,5.673944e+001
9.758197e+002,7.466904e+001
9.883549e+002,7.710480e+001
1.000890e+003,7.653543e+001
1.013425e+003,7.380396e+001
1.025961e+003,6.784345e+001
1.038496e+003,5.372985e+001
1.051031e+003,5.659899e+001
1.063566e+003,6.431973e+001
1.076102e+003,7.203355e+001
1.088637e+003,6.230005e+001
1.101172e+003,5.704835e+001
1.113707e+003,6.329612e+001
1.126243e+003,6.796944e+001
1.138778e+003,5.194751e+001
1.151313e+003,2.911344e+001
1.163848e+003,2.137946e+001
1.176383e+003,2.573565e+001
1.188919e+003,3.472621e+001
1.201454e+003,6.558456e+001
1.213989e+003,7.077070e+001
1.226524e+003,6.235802e+001
1.239060e+003,3.724409e+001
1.251595e+003,7.045510e+001
1.264130e+003,7.822442e+001
1.276665e+003,7.655132e+001
1.289201e+003,6.347487e+001
1.301736e+003,7.371438e+001
1.314271e+003,8.331960e+001
1.326806e+003,8.486834e+001
1.339342e+003,8.610639e+001
1.351877e+003,7.444191e+001
1.364412e+003,5.885736e+001
1.376947e+003,7.371040e+001
1.389482e+003,8.198723e+001
1.402018e+003,8.129646e+001
1.414553e+003,7.544366e+001
1.427088e+003,8.660709e+001
1.439623e+003,8.741647e+001
1.452159e+003,8.621670e+001
1.464694e+003,7.905572e+001
1.477229e+003,8.254601e+001
1.489764e+003,9.556116e+001
1.502300e+003,9.671983e+001
1.514835e+003,9.712311e+001
1.527370e+003,9.735981e+001
1.539905e+003,9.761472e+001
1.552441e+003,9.728073e+001
1.564976e+003,9.728239e+001
1.577511e+003,9.709225e+001
1.590046e+003,9.683212e+001
1.602581e+003,9.636797e+001
1.615117e+003,9.565436e+001
1.627652e+003,9.475196e+001
1.640187e+003,9.385224e+001
1.652722e+003,9.309555e+001
1.665258e+003,9.021164e+001
1.677793e+003,8.366940e+001
1.690328e+003,7.340905e+001
1.702863e+003,6.168389e+001
1.715399e+003,2.601925e+001
1.727934e+003,2.967877e+001
1.740469e+003,6.277691e+001
1.753004e+003,9.026836e+001
1.765539e+003,9.410135e+001
1.778075e+003,9.568365e+001
1.790610e+003,9.688817e+001
1.803145e+003,9.770010e+001
1.815680e+003,9.830746e+001
1.828216e+003,9.858269e+001
1.840751e+003,9.853452e+001
1.853286e+003,9.887737e+001
1.865821e+003,9.895747e+001
1.878357e+003,9.894450e+001
1.890892e+003,9.885269e+001
1.903427e+003,9.894607e+001
1.915962e+003,9.878011e+001
1.928498e+003,9.903198e+001
1.941033e+003,9.896013e+001
1.953568e+003,9.902306e+001
1.966103e+003,9.891251e+001
1.978638e+003,9.831513e+001
1.991174e+003,9.900104e+001
2.003709e+003,9.905075e+001
2.016244e+003,9.912758e+001
2.028779e+003,9.894669e+001
2.041315e+003,9.862039e+001
2.053850e+003,9.881264e+001
2.066385e+003,9.874179e+001
2.078920e+003,9.853362e+001
2.091456e+003,9.859050e+001
2.103991e+003,9.857938e+001
2.116526e+003,9.889320e+001
2.129061e+003,9.932765e+001
2.141596e+003,9.918424e+001
2.154132e+003,9.944260e+001
2.166667e+003,9.879489e+001
2.179202e+003,9.897330e+001
2.191738e+003,9.900057e+001
2.204273e+003,9.913322e+001
2.216808e+003,9.901023e+001
2.229343e+003,9.895890e+001
2.241878e+003,9.904534e+001
2.254414e+003,9.900939e+001
2.266949e+003,9.906091e+001
2.279484e+003,9.890427e+001
2.292019e+003,9.870473e+001
2.304555e+003,9.868841e+001
2.317090e+003,9.843430e+001
2.329625e+003,9.854604e+001
2.342160e+003,9.830260e+001
2.354696e+003,9.850866e+001
2.367231e+003,9.856699e+001
2.379766e+003,9.900389e+001
2.392301e+003,9.921347e+001
2.404836e+003,9.914241e+001
2.417372e+003,9.907769e+001
2.429907e+003,9.920519e+001
2.442442e+003,9.909531e+001
2.454977e+003,9.912835e+001
2.467513e+003,9.910593e+001
2.480048e+003,9.914111e+001
2.492583e+003,9.914724e+001
2.505118e+003,9.919934e+001
2.517654e+003,9.909217e+001
2.530189e+003,9.900868e+001
2.542724e+003,9.897134e+001
2.555259e+003,9.910525e+001
2.567794e+003,9.906123e+001
2.580330e+003,9.889688e+001
2.592865e+003,9.897854e+001
2.605400e+003,9.893131e+001
2.617936e+003,9.888284e+001
2.630471e+003,9.877589e+001
2.643006e+003,9.865358e+001
2.655541e+003,9.866882e+001
2.668076e+003,9.879552e+001
2.680612e+003,9.865440e+001
2.693147e+003,9.869681e+001
2.705682e+003,9.864778e+001
2.718217e+003,9.862070e+001
2.730753e+003,9.859254e+001
2.743288e+003,9.849950e+001
2.755823e+003,9.845223e+001
2.768358e+003,9.821452e+001
2.780894e+003,9.815294e+001
2.793429e+003,9.797773e+001
2.805964e+003,9.768920e+001
2.818499e+003,9.686536e+001
2.831034e+003,9.591251e+001
2.843570e+003,9.313691e+001
2.856105e+003,8.465313e+001
2.868640e+003,8.021103e+001
2.881175e+003,8.810175e+001
2.893711e+003,8.388281e+001
2.906246e+003,8.318021e+001
2.918781e+003,7.877847e+001
2.931316e+003,7.341581e+001
2.943852e+003,7.016206e+001
2.956387e+003,7.563253e+001
2.968922e+003,8.643488e+001
2.981457e+003,9.361238e+001
2.993992e+003,9.666819e+001
3.006528e+003,9.783070e+001
3.019063e+003,9.830013e+001
3.031598e+003,9.845940e+001
3.044134e+003,9.856989e+001
3.056669e+003,9.867397e+001
3.069204e+003,9.878797e+001
3.081739e+003,9.882593e+001
3.094274e+003,9.886156e+001
3.106810e+003,9.881263e+001
3.119345e+003,9.896569e+001
3.131880e+003,9.893091e+001
3.144415e+003,9.896326e+001
3.156950e+003,9.895990e+001
3.169486e+003,9.895538e+001
3.182021e+003,9.896786e+001
3.194556e+003,9.902716e+001
3.207092e+003,9.901151e+001
3.219627e+003,9.896816e+001
3.232162e+003,9.903762e+001
3.244697e+003,9.900297e+001
3.257232e+003,9.899179e+001
3.269768e+003,9.898326e+001
3.282303e+003,9.901463e+001
3.294838e+003,9.894983e+001
3.307373e+003,9.894006e+001
3.319909e+003,9.899931e+001
3.332444e+003,9.904944e+001
3.344979e+003,9.890199e+001
3.357514e+003,9.898959e+001
3.370050e+003,9.903487e+001
3.382585e+003,9.910067e+001
3.395120e+003,9.894549e+001
3.407655e+003,9.895699e+001
3.420190e+003,9.873560e+001
3.432726e+003,9.827681e+001
3.445261e+003,9.822979e+001
3.457796e+003,9.863690e+001
3.470332e+003,9.888998e+001
3.482867e+003,9.906677e+001
3.495402e+003,9.895892e+001
3.507937e+003,9.911748e+001
3.520472e+003,9.918155e+001
3.533008e+003,9.910294e+001
3.545543e+003,9.899339e+001
3.558078e+003,9.915131e+001
3.570613e+003,9.916833e+001
3.583148e+003,9.931016e+001
3.595684e+003,9.950855e+001
3.608219e+003,9.914025e+001
3.620754e+003,9.930570e+001
3.633290e+003,9.924279e+001
3.645825e+003,9.955540e+001
3.658360e+003,9.943288e+001
3.670895e+003,9.963138e+001
3.683430e+003,9.960374e+001
3.695966e+003,9.966938e+001
3.708501e+003,9.967963e+001
3.721036e+003,9.963887e+001
3.733571e+003,9.961969e+001
3.746107e+003,9.967100e+001
3.758642e+003,9.966534e+001
3.771177e+003,9.970793e+001
3.783712e+003,9.962637e+001
3.796248e+003,9.978031e+001
3.808783e+003,9.965971e+001
3.821318e+003,9.980042e+001
3.833853e+003,9.959565e+001
3.846388e+003,9.960865e+001
3.858924e+003,9.963641e+001
3.871459e+003,9.950000e+001
3.883994e+003,9.954431e+001
3.896529e+003,9.945437e+001
3.909065e+003,9.948581e+001
3.921600e+003,9.963731e+001
3.934135e+003,9.952508e+001
3.946670e+003,9.949034e+001
3.959206e+003,9.942300e+001
3.971741e+003,9.947043e+001
3.984276e+003,9.957226e+001
3.996811e+003,9.944753e+001
4.000668e+003,0.000000e+000